pic_name,class_mi,run.thisRepN,run.thisTrialN,run.thisN,run.thisIndex,trials.thisRepN,trials.thisTrialN,trials.thisN,trials.thisIndex,thisRow.t,notes,pre_block.started,text_pre_block.started,key_resp_start.started,pre_block.stopped,key_resp_start.keys,key_resp_start.rt,key_resp_start.duration,wait_screen.started,text_2.started,wait_screen.stopped,pre_cue.started,hor_line_precue.started,ver_line_precue.started,hor_line_precue.stopped,ver_line_precue.stopped,pre_cue.stopped,MI.started,image_mi.started,polygon.started,polygon_2.started,polygon_3.started,polygon_4.started,image_mi.stopped,polygon.stopped,polygon_2.stopped,polygon_3.stopped,polygon_4.stopped,MI.stopped,pause.started,text_pause.started,text_pause.stopped,pause.stopped,run_break.started,text.started,key_resp.started,run_break.stopped,key_resp.keys,key_resp.rt,key_resp.duration,participant,session,date,expName,psychopyVersion,frameRate,expStart,
,,,,,,,,,,,,0.025437099975533783,0.04026879998855293,0.04026879998855293,5.129922799998894,space,5.087779399938881,None,,,,,,,,,,,,,,,,,,,,,,,,,,,,,,,,,960971,001,2024-10-01_11h46.53.859,online_paradigm,2024.1.5,None,2024-10-01 11h47.00.834469 +0200,
pics/left_hand.JPG,left_hand,0,0,0,0,0,0,0,1,8.164939800044522,,,,,,,,,5.131149800028652,5.145314499968663,8.131725699990056,8.149392300052568,8.164939800044522,8.164939800044522,10.183598799980246,10.183598799980246,10.151024500024505,10.151062799966894,10.183598799980246,10.183598799980246,10.183598799980246,10.183598799980246,10.183598799980246,14.6881150000263,14.6881150000263,14.6881150000263,14.6881150000263,14.6881150000263,14.67358449997846,14.673617899999954,14.6881150000263,17.19050809997134,17.174401400028728,,,,,,,,960971,001,2024-10-01_11h46.53.859,online_paradigm,2024.1.5,None,2024-10-01 11h47.00.834469 +0200,
pics/left_hand.JPG,left_hand,0,0,0,0,0,1,1,1,17.19050809997134,,,,,,,,,,,,17.174792899983004,17.19050809997134,17.19050809997134,19.192463999963365,19.192463999963365,19.17645609995816,19.1764806000283,19.192463999963365,19.192463999963365,19.192463999963365,19.192463999963365,19.192463999963365,23.6970734000206,23.6970734000206,23.6970734000206,23.6970734000206,23.6970734000206,23.682096400065348,23.682126700063236,23.6970734000206,26.199483699980192,26.183766799978912,,,,,,,,960971,001,2024-10-01_11h46.53.859,online_paradigm,2024.1.5,None,2024-10-01 11h47.00.834469 +0200,
pics/right_foot.JPG,right_foot,0,0,0,0,0,2,2,3,26.199483699980192,,,,,,,,,,,,26.184381500002928,26.199483699980192,26.199483699980192,28.218153599998914,28.218153599998914,28.18594049999956,28.185986199998297,28.218153599998914,28.218153599998914,28.218153599998914,28.218153599998914,28.218153599998914,32.73933470004704,32.73933470004704,32.73933470004704,32.73933470004704,32.73933470004704,32.725037800031714,32.725081000011414,32.73933470004704,35.24167989997659,35.225910900044255,,,,,,,,960971,001,2024-10-01_11h46.53.859,online_paradigm,2024.1.5,None,2024-10-01 11h47.00.834469 +0200,
pics/left_foot.JPG,left_foot,0,0,0,0,0,3,3,0,35.24167989997659,,,,,,,,,,,,35.22635829995852,35.24167989997659,35.24167989997659,37.26051960000768,37.26051960000768,37.22792320000008,37.22796290006954,37.26051960000768,37.26051960000768,37.26051960000768,37.26051960000768,37.26051960000768,41.764993499964476,41.764993499964476,41.764993499964476,41.764993499964476,41.764993499964476,41.74960800004192,41.749634800013155,41.764993499964476,44.26737909996882,44.25159470003564,,,,,,,,960971,001,2024-10-01_11h46.53.859,online_paradigm,2024.1.5,None,2024-10-01 11h47.00.834469 +0200,
pics/left_foot.JPG,left_foot,0,0,0,0,1,0,4,0,44.26737909996882,,,,,,,,,,,,44.25232319999486,44.26737909996882,44.26737909996882,46.28605940006673,46.28605940006673,46.254507999983616,46.25456120003946,46.28605940006673,46.28605940006673,46.28605940006673,46.28605940006673,46.28605940006673,50.79056610004045,50.79056610004045,50.79056610004045,50.79056610004045,50.79056610004045,50.77536900003906,50.7753958000103,50.79056610004045,53.293056400027126,53.277417100034654,,,,,,,,960971,001,2024-10-01_11h46.53.859,online_paradigm,2024.1.5,None,2024-10-01 11h47.00.834469 +0200,
pics/right_foot.JPG,right_foot,0,0,0,0,1,1,5,3,53.293056400027126,,,,,,,,,,,,53.2782510999823,53.293056400027126,53.293056400027126,55.32776140002534,55.32776140002534,55.30619390006177,55.3062202000292,55.32776140002534,55.32776140002534,55.32776140002534,55.32776140002534,55.32776140002534,59.83293939998839,59.83293939998839,59.83293939998839,59.83293939998839,59.83293939998839,59.81782810005825,59.81786429998465,59.83293939998839,62.335440000053495,62.31992779998109,,,,,,,,960971,001,2024-10-01_11h46.53.859,online_paradigm,2024.1.5,None,2024-10-01 11h47.00.834469 +0200,
pics/left_foot.JPG,left_foot,0,0,0,0,1,2,6,0,62.335440000053495,,,,,,,,,,,,62.32059560006019,62.335440000053495,62.335440000053495,64.35383170004934,64.35383170004934,64.32112990005407,64.32116110005882,64.35383170004934,64.35383170004934,64.35383170004934,64.35383170004934,64.35383170004934,68.85844880004879,68.85844880004879,68.85844880004879,68.85844880004879,68.85844880004879,68.84322739997879,68.84325889998581,68.85844880004879,71.36099730001297,71.34501629997976,,,,,,,,960971,001,2024-10-01_11h46.53.859,online_paradigm,2024.1.5,None,2024-10-01 11h47.00.834469 +0200,
pics/left_foot.JPG,left_foot,0,0,0,0,1,3,7,0,71.36099730001297,,,,,,,,,,,,71.34543330001179,71.36099730001297,71.36099730001297,73.3797109000152,73.3797109000152,73.34701010002755,73.34704270004295,73.3797109000152,73.3797109000152,73.3797109000152,73.3797109000152,73.3797109000152,77.88409860001411,77.88409860001411,77.88409860001411,77.88409860001411,77.88409860001411,77.86902009998448,77.86904949997552,77.88409860001411,80.38653330004308,80.37050309998449,,,,,,,,960971,001,2024-10-01_11h46.53.859,online_paradigm,2024.1.5,None,2024-10-01 11h47.00.834469 +0200,
pics/left_hand.JPG,left_hand,0,0,0,0,2,0,8,1,80.38653330004308,,,,,,,,,,,,80.37094930000603,80.38653330004308,80.38653330004308,82.40541530004703,82.40541530004703,82.37292950006668,82.37296649999917,82.40541530004703,82.40541530004703,82.40541530004703,82.40541530004703,82.40541530004703,86.90971440006979,86.90971440006979,86.90971440006979,86.90971440006979,86.90971440006979,86.89457540004514,86.89460470003542,86.90971440006979,89.41217490006238,89.39611610001884,,,,,,,,960971,001,2024-10-01_11h46.53.859,online_paradigm,2024.1.5,None,2024-10-01 11h47.00.834469 +0200,
pics/mental_singing.JPG,mental_singing,0,0,0,0,2,1,9,2,89.41217490006238,,,,,,,,,,,,89.3965959000634,89.41217490006238,89.41217490006238,91.43088440003339,91.43088440003339,91.3982511999784,91.39827780006453,91.43088440003339,91.43088440003339,91.43088440003339,91.43088440003339,91.43088440003339,95.93535330006853,95.93535330006853,95.93535330006853,95.93535330006853,95.93535330006853,95.92054880002979,95.92057469999418,95.93535330006853,98.4377555999672,98.42172920005396,,,,,,,,960971,001,2024-10-01_11h46.53.859,online_paradigm,2024.1.5,None,2024-10-01 11h47.00.834469 +0200,
pics/mental_singing.JPG,mental_singing,0,0,0,0,2,2,10,2,98.4377555999672,,,,,,,,,,,,98.42219189996831,98.4377555999672,98.4377555999672,100.45656670001335,100.45656670001335,100.42397710005753,100.42401640000753,100.45656670001335,100.45656670001335,100.45656670001335,100.45656670001335,100.45656670001335,104.96100490004756,104.96100490004756,104.96100490004756,104.96100490004756,104.96100490004756,104.94607710000128,104.94611490005627,104.96100490004756,107.46342200005893,107.44731720001437,,,,,,,,960971,001,2024-10-01_11h46.53.859,online_paradigm,2024.1.5,None,2024-10-01 11h47.00.834469 +0200,
pics/right_foot.JPG,right_foot,0,0,0,0,2,3,11,3,107.46342200005893,,,,,,,,,,,,107.44780620001256,107.46342200005893,107.46342200005893,109.482100800029,109.482100800029,109.44980179995764,109.44983609998599,109.482100800029,109.482100800029,109.482100800029,109.482100800029,109.482100800029,113.98637399997097,113.98637399997097,113.98637399997097,113.98637399997097,113.98637399997097,113.97188980004285,113.97193430003244,113.98637399997097,116.48898610007018,116.47294700006023,,,,,,,,960971,001,2024-10-01_11h46.53.859,online_paradigm,2024.1.5,None,2024-10-01 11h47.00.834469 +0200,
pics/left_foot.JPG,left_foot,0,0,0,0,3,0,12,0,116.48898610007018,,,,,,,,,,,,116.47344119998161,116.48898610007018,116.48898610007018,118.5077517000027,118.5077517000027,118.47510499996133,118.47514170000795,118.5077517000027,118.5077517000027,118.5077517000027,118.5077517000027,118.5077517000027,123.01219819998369,123.01219819998369,123.01219819998369,123.01219819998369,123.01219819998369,122.99759509996511,122.99763420003,123.01219819998369,125.51466390001588,125.49860200006515,,,,,,,,960971,001,2024-10-01_11h46.53.859,online_paradigm,2024.1.5,None,2024-10-01 11h47.00.834469 +0200,
pics/right_foot.JPG,right_foot,0,0,0,0,3,1,13,3,125.51466390001588,,,,,,,,,,,,125.49911990005057,125.51466390001588,125.51466390001588,127.53336050000507,127.53336050000507,127.50059810001403,127.50062139995862,127.53336050000507,127.53336050000507,127.53336050000507,127.53336050000507,127.53336050000507,132.03777759999502,132.03777759999502,132.03777759999502,132.03777759999502,132.03777759999502,132.0231322000036,132.023164800019,132.03777759999502,134.54045570001472,134.52435359999072,,,,,,,,960971,001,2024-10-01_11h46.53.859,online_paradigm,2024.1.5,None,2024-10-01 11h47.00.834469 +0200,
pics/right_foot.JPG,right_foot,0,0,0,0,3,2,14,3,134.54045570001472,,,,,,,,,,,,134.52483460004441,134.54045570001472,134.54045570001472,136.54216509999242,136.54216509999242,136.52611540001817,136.52614049997646,136.54216509999242,136.54216509999242,136.54216509999242,136.54216509999242,136.54216509999242,141.046735299984,141.046735299984,141.046735299984,141.046735299984,141.046735299984,141.03175229998305,141.03178379999008,141.046735299984,143.5492175000254,143.5337509000674,,,,,,,,960971,001,2024-10-01_11h46.53.859,online_paradigm,2024.1.5,None,2024-10-01 11h47.00.834469 +0200,
pics/left_hand.JPG,left_hand,0,0,0,0,3,3,15,1,143.5492175000254,,,,,,,,,,,,143.53432840004098,143.5492175000254,143.5492175000254,145.56791940005496,145.56791940005496,145.53572230006102,145.53576650004834,145.56791940005496,145.56791940005496,145.56791940005496,145.56791940005496,145.56791940005496,150.07235949998721,150.07235949998721,150.07235949998721,150.07235949998721,150.07235949998721,150.05741780006792,150.05745490000118,150.07235949998721,152.57482510001864,152.55866730003618,,,,,,,,960971,001,2024-10-01_11h46.53.859,online_paradigm,2024.1.5,None,2024-10-01 11h47.00.834469 +0200,
pics/mental_singing.JPG,mental_singing,0,0,0,0,4,0,16,2,152.57482510001864,,,,,,,,,,,,152.55906710005365,152.57482510001864,152.57482510001864,154.5934928000206,154.5934928000206,154.56077890004963,154.56080440001097,154.5934928000206,154.5934928000206,154.5934928000206,154.5934928000206,154.5934928000206,159.098090399988,159.098090399988,159.098090399988,159.098090399988,159.098090399988,159.08245180000085,159.08247939997818,159.098090399988,161.60045809997246,161.58432240004186,,,,,,,,960971,001,2024-10-01_11h46.53.859,online_paradigm,2024.1.5,None,2024-10-01 11h47.00.834469 +0200,
pics/left_hand.JPG,left_hand,0,0,0,0,4,1,17,1,161.60045809997246,,,,,,,,,,,,161.58471690001898,161.60045809997246,161.60045809997246,163.60241519997362,163.60241519997362,163.58636239997577,163.58638830005657,163.60241519997362,163.60241519997362,163.60241519997362,163.60241519997362,163.60241519997362,168.10698439995758,168.10698439995758,168.10698439995758,168.10698439995758,168.10698439995758,168.0920221999986,168.09205259999726,168.10698439995758,170.6153626999585,170.59402279998176,,,,,,,,960971,001,2024-10-01_11h46.53.859,online_paradigm,2024.1.5,None,2024-10-01 11h47.00.834469 +0200,
pics/mental_singing.JPG,mental_singing,0,0,0,0,4,2,18,2,170.6153626999585,,,,,,,,,,,,170.59456650004722,170.6153626999585,170.6153626999585,172.6447385000065,172.6447385000065,172.61198609997518,172.61200950003695,172.6447385000065,172.6447385000065,172.6447385000065,172.6447385000065,172.6447385000065,177.1492917999858,177.1492917999858,177.1492917999858,177.1492917999858,177.1492917999858,177.13382450002246,177.1338523000013,177.1492917999858,179.65172870003153,179.63563200004864,,,,,,,,960971,001,2024-10-01_11h46.53.859,online_paradigm,2024.1.5,None,2024-10-01 11h47.00.834469 +0200,
pics/mental_singing.JPG,mental_singing,0,0,0,0,4,3,19,2,179.65172870003153,,,,,,,,,,,,179.6363061000593,179.65172870003153,179.65172870003153,181.67041899997275,181.67041899997275,181.63781700003892,181.63786160002928,181.67041899997275,181.67041899997275,181.67041899997275,181.67041899997275,181.67041899997275,186.17482750001363,186.17482750001363,186.17482750001363,186.17482750001363,186.17482750001363,186.15954460005742,186.1595723000355,186.17482750001363,188.67729240003973,188.66113570006564,,,,,,,,960971,001,2024-10-01_11h46.53.859,online_paradigm,2024.1.5,None,2024-10-01 11h47.00.834469 +0200,
,,0,0,0,0,,,,,,,,,,,,,,,,,,,,,,,,,,,,,,,,,,,,,,,188.66127449995838,188.67729240003973,188.67729240003973,212.98637130006682,space,24.299353600014,None,960971,001,2024-10-01_11h46.53.859,online_paradigm,2024.1.5,None,2024-10-01 11h47.00.834469 +0200,
pics/mental_singing.JPG,mental_singing,1,0,1,0,0,0,0,2,216.00441629998386,,,,,,,,,212.98774710006546,213.00137940002605,215.9879215999972,215.99490900000092,216.00441629998386,216.00441629998386,218.02317339996807,218.02317339996807,217.9906057000626,217.99064640002325,218.02317339996807,218.02317339996807,218.02317339996807,218.02317339996807,218.02317339996807,222.52769030001946,222.52769030001946,222.52769030001946,222.52769030001946,222.52769030001946,222.5135472000111,222.51359630003572,222.52769030001946,225.03017659997568,225.01431810006034,,,,,,,,960971,001,2024-10-01_11h46.53.859,online_paradigm,2024.1.5,None,2024-10-01 11h47.00.834469 +0200,
pics/left_hand.JPG,left_hand,1,0,1,0,0,1,1,1,225.03017659997568,,,,,,,,,,,,225.0150949000381,225.03017659997568,225.03017659997568,227.04886079998687,227.04886079998687,227.01672790001612,227.01677680003922,227.04886079998687,227.04886079998687,227.04886079998687,227.04886079998687,227.04886079998687,231.55326559999958,231.55326559999958,231.55326559999958,231.55326559999958,231.55326559999958,231.53908640006557,231.5391295000445,231.55326559999958,234.05571480002254,234.03951420006342,,,,,,,,960971,001,2024-10-01_11h46.53.859,online_paradigm,2024.1.5,None,2024-10-01 11h47.00.834469 +0200,
pics/left_hand.JPG,left_hand,1,0,1,0,0,2,2,1,234.05571480002254,,,,,,,,,,,,234.03998440003488,234.05571480002254,234.05571480002254,236.07443200005218,236.07443200005218,236.0420266999863,236.04206780006643,236.07443200005218,236.07443200005218,236.07443200005218,236.07443200005218,236.07443200005218,240.59559759998228,240.59559759998228,240.59559759998228,240.59559759998228,240.59559759998228,240.58125359995756,240.5813071000157,240.59559759998228,243.0980956000276,243.08215869998094,,,,,,,,960971,001,2024-10-01_11h46.53.859,online_paradigm,2024.1.5,None,2024-10-01 11h47.00.834469 +0200,
pics/left_foot.JPG,left_foot,1,0,1,0,0,3,3,0,243.0980956000276,,,,,,,,,,,,243.08256740006618,243.0980956000276,243.0980956000276,245.11674860003404,245.11674860003404,245.0840099999914,245.08404420001898,245.11674860003404,245.11674860003404,245.11674860003404,245.11674860003404,245.11674860003404,249.6378579000011,249.6378579000011,249.6378579000011,249.6378579000011,249.6378579000011,249.62484980002046,249.6249009000603,249.6378579000011,252.14036089996807,252.12475229997654,,,,,,,,960971,001,2024-10-01_11h46.53.859,online_paradigm,2024.1.5,None,2024-10-01 11h47.00.834469 +0200,
pics/left_foot.JPG,left_foot,1,0,1,0,1,0,4,0,252.14036089996807,,,,,,,,,,,,252.12553509999998,252.14036089996807,252.14036089996807,254.15899260004517,254.15899260004517,254.12660139997024,254.12664360005874,254.15899260004517,254.15899260004517,254.15899260004517,254.15899260004517,254.15899260004517,258.66353330004495,258.66353330004495,258.66353330004495,258.66353330004495,258.66353330004495,258.6495176999597,258.6495591000421,258.66353330004495,261.16584709996823,261.1499907000689,,,,,,,,960971,001,2024-10-01_11h46.53.859,online_paradigm,2024.1.5,None,2024-10-01 11h47.00.834469 +0200,
pics/mental_singing.JPG,mental_singing,1,0,1,0,1,1,5,2,261.16584709996823,,,,,,,,,,,,261.1508124000393,261.16584709996823,261.16584709996823,263.184575799969,263.184575799969,263.152394899982,263.15244580002036,263.184575799969,263.184575799969,263.184575799969,263.184575799969,263.184575799969,267.7058390000602,267.7058390000602,267.7058390000602,267.7058390000602,267.7058390000602,267.69139970000833,267.69144750002306,267.7058390000602,270.20832269999664,270.19244420004543,,,,,,,,960971,001,2024-10-01_11h46.53.859,online_paradigm,2024.1.5,None,2024-10-01 11h47.00.834469 +0200,
pics/left_hand.JPG,left_hand,1,0,1,0,1,2,6,1,270.20832269999664,,,,,,,,,,,,270.1932160999859,270.20832269999664,270.20832269999664,272.2101952000521,272.2101952000521,272.1944060999667,272.1944387999829,272.2101952000521,272.2101952000521,272.2101952000521,272.2101952000521,272.2101952000521,276.7146328999661,276.7146328999661,276.7146328999661,276.7146328999661,276.7146328999661,276.7004445999628,276.700496800011,276.7146328999661,279.2172332999762,279.2015232000267,,,,,,,,960971,001,2024-10-01_11h46.53.859,online_paradigm,2024.1.5,None,2024-10-01 11h47.00.834469 +0200,
pics/left_hand.JPG,left_hand,1,0,1,0,1,3,7,1,279.2172332999762,,,,,,,,,,,,279.20225430000573,279.2172332999762,279.2172332999762,281.2358828999568,281.2358828999568,281.20348040002864,281.20352750003804,281.2358828999568,281.2358828999568,281.2358828999568,281.2358828999568,281.2358828999568,285.740344400052,285.740344400052,285.740344400052,285.740344400052,285.740344400052,285.7255947999656,285.72562889999244,285.740344400052,288.24279559997376,288.22679580003023,,,,,,,,960971,001,2024-10-01_11h46.53.859,online_paradigm,2024.1.5,None,2024-10-01 11h47.00.834469 +0200,
pics/left_foot.JPG,left_foot,1,0,1,0,2,0,8,0,288.24279559997376,,,,,,,,,,,,288.227593800053,288.24279559997376,288.24279559997376,290.2615732999984,290.2615732999984,290.2291236000601,290.22916780004743,290.2615732999984,290.2615732999984,290.2615732999984,290.2615732999984,290.2615732999984,294.7660940999631,294.7660940999631,294.7660940999631,294.7660940999631,294.7660940999631,294.7521222999785,294.752174400026,294.7660940999631,297.26847110001836,297.2526520000538,,,,,,,,960971,001,2024-10-01_11h46.53.859,online_paradigm,2024.1.5,None,2024-10-01 11h47.00.834469 +0200,
pics/left_hand.JPG,left_hand,1,0,1,0,2,1,9,1,297.26847110001836,,,,,,,,,,,,297.2534192999592,297.26847110001836,297.26847110001836,299.2871583000524,299.2871583000524,299.25456280005164,299.2546274999622,299.2871583000524,299.2871583000524,299.2871583000524,299.2871583000524,299.2871583000524,303.80834580003284,303.80834580003284,303.80834580003284,303.80834580003284,303.80834580003284,303.7940932000056,303.79414430004545,303.80834580003284,306.31080340000335,306.2950201999629,,,,,,,,960971,001,2024-10-01_11h46.53.859,online_paradigm,2024.1.5,None,2024-10-01 11h47.00.834469 +0200,
pics/mental_singing.JPG,mental_singing,1,0,1,0,2,2,10,2,306.31080340000335,,,,,,,,,,,,306.2957267999882,306.31080340000335,306.31080340000335,308.32943789998535,308.32943789998535,308.29684690001886,308.2968928000191,308.32943789998535,308.32943789998535,308.32943789998535,308.32943789998535,308.32943789998535,312.8339251000434,312.8339251000434,312.8339251000434,312.8339251000434,312.8339251000434,312.81954890000634,312.81959079997614,312.8339251000434,315.3364620000357,315.32094470004085,,,,,,,,960971,001,2024-10-01_11h46.53.859,online_paradigm,2024.1.5,None,2024-10-01 11h47.00.834469 +0200,
pics/left_foot.JPG,left_foot,1,0,1,0,2,3,11,0,315.3364620000357,,,,,,,,,,,,315.3217926999787,315.3364620000357,315.3364620000357,317.35507459996734,317.35507459996734,317.32292469998356,317.32297229999676,317.35507459996734,317.35507459996734,317.35507459996734,317.35507459996734,317.35507459996734,321.85955160006415,321.85955160006415,321.85955160006415,321.85955160006415,321.85955160006415,321.8451600000262,321.845203600009,321.85955160006415,324.361984499963,324.3460767000215,,,,,,,,960971,001,2024-10-01_11h46.53.859,online_paradigm,2024.1.5,None,2024-10-01 11h47.00.834469 +0200,
pics/right_foot.JPG,right_foot,1,0,1,0,3,0,12,3,324.361984499963,,,,,,,,,,,,324.34673820005264,324.361984499963,324.361984499963,326.38062609999906,326.38062609999906,326.34822889999487,326.34825949999504,326.38062609999906,326.38062609999906,326.38062609999906,326.38062609999906,326.38062609999906,330.8852071999572,330.8852071999572,330.8852071999572,330.8852071999572,330.8852071999572,330.87116810004227,330.87121909996495,330.8852071999572,333.38763010001276,333.3714960999787,,,,,,,,960971,001,2024-10-01_11h46.53.859,online_paradigm,2024.1.5,None,2024-10-01 11h47.00.834469 +0200,
pics/mental_singing.JPG,mental_singing,1,0,1,0,3,1,13,2,333.38763010001276,,,,,,,,,,,,333.3719789000461,333.38763010001276,333.38763010001276,335.40631820005365,335.40631820005365,335.37365680001676,335.3736929000588,335.40631820005365,335.40631820005365,335.40631820005365,335.40631820005365,335.40631820005365,339.9108356999932,339.9108356999932,339.9108356999932,339.9108356999932,339.9108356999932,339.8966167999897,339.89666089997627,339.9108356999932,342.41331490001176,342.3973742000526,,,,,,,,960971,001,2024-10-01_11h46.53.859,online_paradigm,2024.1.5,None,2024-10-01 11h47.00.834469 +0200,
pics/right_foot.JPG,right_foot,1,0,1,0,3,2,14,3,342.41331490001176,,,,,,,,,,,,342.3980535999872,342.41331490001176,342.41331490001176,344.43197629996575,344.43197629996575,344.3994952000212,344.3995425000321,344.43197629996575,344.43197629996575,344.43197629996575,344.43197629996575,344.43197629996575,348.93633980001323,348.93633980001323,348.93633980001323,348.93633980001323,348.93633980001323,348.92153900000267,348.92157939996105,348.93633980001323,351.43891590007115,351.423395800055,,,,,,,,960971,001,2024-10-01_11h46.53.859,online_paradigm,2024.1.5,None,2024-10-01 11h47.00.834469 +0200,
pics/right_foot.JPG,right_foot,1,0,1,0,3,3,15,3,351.43891590007115,,,,,,,,,,,,351.42420989996754,351.43891590007115,351.43891590007115,353.4574645999819,353.4574645999819,353.4254286000505,353.42549339996185,353.4574645999819,353.4574645999819,353.4574645999819,353.4574645999819,353.4574645999819,357.9618391999975,357.9618391999975,357.9618391999975,357.9618391999975,357.9618391999975,357.9470542999916,357.9470866000047,357.9618391999975,360.4644328999566,360.4488632000284,,,,,,,,960971,001,2024-10-01_11h46.53.859,online_paradigm,2024.1.5,None,2024-10-01 11h47.00.834469 +0200,
pics/right_foot.JPG,right_foot,1,0,1,0,4,0,16,3,360.4644328999566,,,,,,,,,,,,360.44984959997237,360.4644328999566,360.4644328999566,362.48320799996145,362.48320799996145,362.45066259999294,362.45070779998787,362.48320799996145,362.48320799996145,362.48320799996145,362.48320799996145,362.48320799996145,366.98768400005065,366.98768400005065,366.98768400005065,366.98768400005065,366.98768400005065,366.97316269995645,366.9732193000382,366.98768400005065,369.49008749995846,369.4740954999579,,,,,,,,960971,001,2024-10-01_11h46.53.859,online_paradigm,2024.1.5,None,2024-10-01 11h47.00.834469 +0200,
pics/right_foot.JPG,right_foot,1,0,1,0,4,1,17,3,369.49008749995846,,,,,,,,,,,,369.474558899994,369.49008749995846,369.49008749995846,371.50879970006645,371.50879970006645,371.4763654000126,371.476406199974,371.50879970006645,371.50879970006645,371.50879970006645,371.50879970006645,371.50879970006645,376.0297597000608,376.0297597000608,376.0297597000608,376.0297597000608,376.0297597000608,376.01531719998457,376.0153508000076,376.0297597000608,378.5324155000271,378.51633640006185,,,,,,,,960971,001,2024-10-01_11h46.53.859,online_paradigm,2024.1.5,None,2024-10-01 11h47.00.834469 +0200,
pics/mental_singing.JPG,mental_singing,1,0,1,0,4,2,18,2,378.5324155000271,,,,,,,,,,,,378.51703940005973,378.5324155000271,378.5324155000271,380.55100310000125,380.55100310000125,380.5182354999706,380.51826589996926,380.55100310000125,380.55100310000125,380.55100310000125,380.55100310000125,380.55100310000125,385.05547550006304,385.05547550006304,385.05547550006304,385.05547550006304,385.05547550006304,385.0405021000188,385.040531000006,385.05547550006304,387.55810330004897,387.5423667000141,,,,,,,,960971,001,2024-10-01_11h46.53.859,online_paradigm,2024.1.5,None,2024-10-01 11h47.00.834469 +0200,
pics/left_foot.JPG,left_foot,1,0,1,0,4,3,19,0,387.55810330004897,,,,,,,,,,,,387.54306020005606,387.55810330004897,387.55810330004897,389.57677589997184,389.57677589997184,389.5440694000572,389.544109200011,389.57677589997184,389.57677589997184,389.57677589997184,389.57677589997184,389.57677589997184,394.08123190002516,394.08123190002516,394.08123190002516,394.08123190002516,394.08123190002516,394.0665476999711,394.0665806999896,394.08123190002516,396.58374619996175,396.5678383000195,,,,,,,,960971,001,2024-10-01_11h46.53.859,online_paradigm,2024.1.5,None,2024-10-01 11h47.00.834469 +0200,
,,,,,,,,,,,,,,,,,,,,,,,,,,,,,,,,,,,,,,,,,,,,396.56799030001275,396.58374619996175,396.58374619996175,,,,,,,,,,,,
