pic_name,class_mi,run.thisRepN,run.thisTrialN,run.thisN,run.thisIndex,trial.thisRepN,trial.thisTrialN,trial.thisN,trial.thisIndex,thisRow.t,notes,pre_run.started,text_pre_run.started,key_resp_start.started,pre_run.stopped,key_resp_start.keys,key_resp_start.rt,key_resp_start.duration,wait_screen.started,text_2.started,wait_screen.stopped,pre_cue.started,hor_line_precue.started,ver_line_precue.started,hor_line_precue.stopped,ver_line_precue.stopped,pre_cue.stopped,MI.started,image_mi.started,image_mi.stopped,MI.stopped,pause.started,text_pause.started,text_pause.stopped,pause.stopped,run_break.started,text.started,key_resp.started,run_break.stopped,key_resp.keys,key_resp.rt,key_resp.duration,post_run.started,text_post_run.started,key_resp_end.started,post_run.stopped,key_resp_end.keys,key_resp_end.rt,key_resp_end.duration,participant,session,date,expName,psychopyVersion,frameRate,expStart,
,,,,,,,,,,,,0.02310989995021373,0.03978240001015365,0.03978240001015365,19.070556799997576,space,18.957586099975742,None,,,,,,,,,,,,,,,,,,,,,,,,,,,,,,,,543092,001,2024-07-26_10h44.46.134,bci_racingteam,2024.1.5,None,2024-07-26 10h44.53.974463 +0200,
pics/left_hand.JPG,left_hand,0,0,0,0,0,0,0,2,22.111704899929464,,,,,,,,,19.071694499929436,19.091976700001396,22.078413999988697,22.094990900019184,22.111704899929464,22.111704899929464,24.11374890001025,24.11374890001025,24.097813099971972,24.09784549998585,24.11374890001025,28.61813820002135,28.60207080002874,28.60209629999008,28.61813820002135,31.12063020002097,31.10449769999832,,,,,,,,,,,,,,,543092,001,2024-07-26_10h44.46.134,bci_racingteam,2024.1.5,None,2024-07-26 10h44.53.974463 +0200,
pics/mental_singing.JPG,mental_singing,0,0,0,0,0,1,1,3,31.12063020002097,,,,,,,,,,,,31.104893199983053,31.12063020002097,31.12063020002097,33.12257889995817,33.12257889995817,33.1062342999503,33.10625730000902,33.12257889995817,37.627131299930625,37.61086300003808,37.61088589997962,37.627131299930625,40.12955069995951,40.113431100035086,,,,,,,,,,,,,,,543092,001,2024-07-26_10h44.46.134,bci_racingteam,2024.1.5,None,2024-07-26 10h44.53.974463 +0200,
pics/right_foot.JPG,right_foot,0,0,0,0,0,2,2,1,40.12955069995951,,,,,,,,,,,,40.11383739998564,40.12955069995951,40.12955069995951,42.13155900000129,42.13155900000129,42.115430400008336,42.11545339995064,42.13155900000129,46.63606089993846,46.61994040000718,46.61996709997766,46.63606089993846,49.13838759995997,49.122171800001524,,,,,,,,,,,,,,,543092,001,2024-07-26_10h44.46.134,bci_racingteam,2024.1.5,None,2024-07-26 10h44.53.974463 +0200,
pics/right_foot.JPG,right_foot,0,0,0,0,0,3,3,1,49.13838759995997,,,,,,,,,,,,49.12258019996807,49.13838759995997,49.13838759995997,51.140513099962845,51.140513099962845,51.12439769995399,51.12441960000433,51.140513099962845,55.64501219999511,55.62906299997121,55.629105099942535,55.64501219999511,58.147474900004454,58.13133160001598,,,,,,,,,,,,,,,543092,001,2024-07-26_10h44.46.134,bci_racingteam,2024.1.5,None,2024-07-26 10h44.53.974463 +0200,
pics/left_hand.JPG,left_hand,0,0,0,0,1,0,4,2,58.147474900004454,,,,,,,,,,,,58.13172730000224,58.147474900004454,58.147474900004454,60.149464200017974,60.149464200017974,60.13335180003196,60.13337759999558,60.149464200017974,64.65398169995751,64.63788980001118,64.63791499997023,64.65398169995751,67.15644379996229,67.14029010001104,,,,,,,,,,,,,,,543092,001,2024-07-26_10h44.46.134,bci_racingteam,2024.1.5,None,2024-07-26 10h44.53.974463 +0200,
pics/mental_singing.JPG,mental_singing,0,0,0,0,1,1,5,3,67.15644379996229,,,,,,,,,,,,67.1406910000369,67.15644379996229,67.15644379996229,69.1584783999715,69.1584783999715,69.14222349994816,69.14224610000383,69.1584783999715,73.66291069996078,73.64672329998575,73.64674619992729,73.66291069996078,76.16537459997926,76.14924059994519,,,,,,,,,,,,,,,543092,001,2024-07-26_10h44.46.134,bci_racingteam,2024.1.5,None,2024-07-26 10h44.53.974463 +0200,
pics/right_foot.JPG,right_foot,0,0,0,0,1,2,6,1,76.16537459997926,,,,,,,,,,,,76.14968329994008,76.16537459997926,76.16537459997926,78.16736500000115,78.16736500000115,78.15135189995635,78.15137819992378,78.16736500000115,82.67180789995473,82.65560139995068,82.65562340000179,82.67180789995473,85.1743359999964,85.15815999999177,,,,,,,,,,,,,,,543092,001,2024-07-26_10h44.46.134,bci_racingteam,2024.1.5,None,2024-07-26 10h44.53.974463 +0200,
pics/right_foot.JPG,right_foot,0,0,0,0,1,3,7,1,85.1743359999964,,,,,,,,,,,,85.15856459992938,85.1743359999964,85.1743359999964,87.17632910003886,87.17632910003886,87.16023559996393,87.16025610000361,87.17632910003886,91.68091190000996,91.66464149998501,91.66466350003611,91.68091190000996,94.183292599977,94.16726749995723,,,,,,,,,,,,,,,543092,001,2024-07-26_10h44.46.134,bci_racingteam,2024.1.5,None,2024-07-26 10h44.53.974463 +0200,
pics/left_hand.JPG,left_hand,0,0,0,0,2,0,8,2,94.183292599977,,,,,,,,,,,,94.16767410002649,94.183292599977,94.183292599977,96.18526699999347,96.18526699999347,96.16917090001516,96.16919289994985,96.18526699999347,100.68978849996347,100.67354230000637,100.67356699996162,100.68978849996347,103.19223849999253,103.1761145000346,,,,,,,,,,,,,,,543092,001,2024-07-26_10h44.46.134,bci_racingteam,2024.1.5,None,2024-07-26 10h44.53.974463 +0200,
pics/left_foot.JPG,left_foot,0,0,0,0,2,1,9,0,103.19223849999253,,,,,,,,,,,,103.17650950001553,103.19223849999253,103.19223849999253,105.19422930001747,105.19422930001747,105.17805570003111,105.17807879997417,105.19422930001747,109.69873209996149,109.68260129995178,109.68262610002421,109.69873209996149,112.20117230003234,112.18508199998178,,,,,,,,,,,,,,,543092,001,2024-07-26_10h44.46.134,bci_racingteam,2024.1.5,None,2024-07-26 10h44.53.974463 +0200,
pics/left_hand.JPG,left_hand,0,0,0,0,2,2,10,2,112.20117230003234,,,,,,,,,,,,112.18550140003208,112.20117230003234,112.20117230003234,114.20305489993189,114.20305489993189,114.18700449995231,114.18702710000798,114.20305489993189,118.70768649992533,118.6915250000311,118.69154799997341,118.70768649992533,121.21021869999822,121.19395690003876,,,,,,,,,,,,,,,543092,001,2024-07-26_10h44.46.134,bci_racingteam,2024.1.5,None,2024-07-26 10h44.53.974463 +0200,
pics/left_foot.JPG,left_foot,0,0,0,0,2,3,11,0,121.21021869999822,,,,,,,,,,,,121.19436690001749,121.21021869999822,121.21021869999822,123.21210340003017,123.21210340003017,123.19599799998105,123.19602129992563,123.21210340003017,127.71661809994839,127.70042829995509,127.70044980000239,127.71661809994839,130.21905590000097,130.2031091999961,,,,,,,,,,,,,,,543092,001,2024-07-26_10h44.46.134,bci_racingteam,2024.1.5,None,2024-07-26 10h44.53.974463 +0200,
pics/left_foot.JPG,left_foot,0,0,0,0,3,0,12,0,130.21905590000097,,,,,,,,,,,,130.20373840001412,130.21905590000097,130.21905590000097,132.221101299976,132.221101299976,132.20486319996417,132.20488560001832,132.221101299976,136.7255769999465,136.70935789996292,136.70937980001327,136.7255769999465,139.2280669999309,139.21196190000046,,,,,,,,,,,,,,,543092,001,2024-07-26_10h44.46.134,bci_racingteam,2024.1.5,None,2024-07-26 10h44.53.974463 +0200,
pics/mental_singing.JPG,mental_singing,0,0,0,0,3,1,13,3,139.2280669999309,,,,,,,,,,,,139.2123573999852,139.2280669999309,139.2280669999309,141.22998549998738,141.22998549998738,141.2139043000061,141.21392789995298,141.22998549998738,145.73453300003894,145.71841359999962,145.71843419992365,145.73453300003894,148.23696889996063,148.22079529997427,,,,,,,,,,,,,,,543092,001,2024-07-26_10h44.46.134,bci_racingteam,2024.1.5,None,2024-07-26 10h44.53.974463 +0200,
pics/mental_singing.JPG,mental_singing,0,0,0,0,3,2,14,3,148.23696889996063,,,,,,,,,,,,148.22119169996586,148.23696889996063,148.23696889996063,150.23895609995816,150.23895609995816,150.22285839996766,150.22288040001877,150.23895609995816,154.743492999929,154.7272928999737,154.72731510002632,154.743492999929,157.24595829995815,157.22979260003194,,,,,,,,,,,,,,,543092,001,2024-07-26_10h44.46.134,bci_racingteam,2024.1.5,None,2024-07-26 10h44.53.974463 +0200,
pics/mental_singing.JPG,mental_singing,0,0,0,0,3,3,15,3,157.24595829995815,,,,,,,,,,,,157.23018870002124,157.24595829995815,157.24595829995815,159.24791679996997,159.24791679996997,159.23181469994597,159.23185169999488,159.24791679996997,163.75223430001643,163.7365210999269,163.73656649992336,163.75223430001643,166.2549012999516,166.23879339999985,,,,,,,,,,,,,,,543092,001,2024-07-26_10h44.46.134,bci_racingteam,2024.1.5,None,2024-07-26 10h44.53.974463 +0200,
pics/left_foot.JPG,left_foot,0,0,0,0,4,0,16,0,166.2549012999516,,,,,,,,,,,,166.2391930000158,166.2549012999516,166.2549012999516,168.2569182999432,168.2569182999432,168.2406976999482,168.24072100000922,168.2569182999432,172.76143289997708,172.74545329995453,172.74548659997527,172.76143289997708,175.26385440002196,175.24768509995192,,,,,,,,,,,,,,,543092,001,2024-07-26_10h44.46.134,bci_racingteam,2024.1.5,None,2024-07-26 10h44.53.974463 +0200,
pics/left_hand.JPG,left_hand,0,0,0,0,4,1,17,2,175.26385440002196,,,,,,,,,,,,175.24809449992608,175.26385440002196,175.26385440002196,177.26599200000055,177.26599200000055,177.24980270001106,177.24983039998915,177.26599200000055,181.77028139994945,181.7542259999318,181.7542519000126,181.77028139994945,184.2727661000099,184.25661709997803,,,,,,,,,,,,,,,543092,001,2024-07-26_10h44.46.134,bci_racingteam,2024.1.5,None,2024-07-26 10h44.53.974463 +0200,
pics/right_foot.JPG,right_foot,0,0,0,0,4,2,18,1,184.2727661000099,,,,,,,,,,,,184.25701499998104,184.2727661000099,184.2727661000099,186.27480869996361,186.27480869996361,186.25866049993783,186.25868279999122,186.27480869996361,190.77936459996272,190.7633742999751,190.76340840000194,190.77936459996272,193.2817632999504,193.26567450002767,,,,,,,,,,,,,,,543092,001,2024-07-26_10h44.46.134,bci_racingteam,2024.1.5,None,2024-07-26 10h44.53.974463 +0200,
pics/left_foot.JPG,left_foot,0,0,0,0,4,3,19,0,193.2817632999504,,,,,,,,,,,,193.26609759998973,193.2817632999504,193.2817632999504,195.28380400000606,195.28380400000606,195.26767919992562,195.26770369999576,195.28380400000606,199.78824239992537,199.77215919992886,199.77218540001195,199.78824239992537,202.29072599997744,202.27457929996308,,,,,,,,,,,,,,,543092,001,2024-07-26_10h44.46.134,bci_racingteam,2024.1.5,None,2024-07-26 10h44.53.974463 +0200,
,,0,0,0,0,,,,,,,,,,,,,,,,,,,,,,,,,,,,,,,202.2746921000071,202.29072599997744,202.29072599997744,331.7704405999975,space,129.47655480005778,None,,,,,,,,543092,001,2024-07-26_10h44.46.134,bci_racingteam,2024.1.5,None,2024-07-26 10h44.53.974463 +0200,
pics/mental_singing.JPG,mental_singing,1,0,1,0,0,0,0,3,334.788945499924,,,,,,,,,331.7713047999423,331.78602210001554,334.77246949996334,334.78068710002117,334.788945499924,334.788945499924,336.79096090001985,336.79096090001985,336.7749105999246,336.77493509999476,336.79096090001985,341.2955236999551,341.27936039993074,341.2793840999948,341.2955236999551,343.7979284999892,343.78177819994744,,,,,,,,,,,,,,,543092,001,2024-07-26_10h44.46.134,bci_racingteam,2024.1.5,None,2024-07-26 10h44.53.974463 +0200,
pics/left_hand.JPG,left_hand,1,0,1,0,0,1,1,2,343.7979284999892,,,,,,,,,,,,343.7821779999649,343.7979284999892,343.7979284999892,345.79997910000384,345.79997910000384,345.7840628999984,345.7840931999963,345.79997910000384,350.30442920001224,350.2882795999758,350.2883023000322,350.30442920001224,352.8069481999846,352.7907741999952,,,,,,,,,,,,,,,543092,001,2024-07-26_10h44.46.134,bci_racingteam,2024.1.5,None,2024-07-26 10h44.53.974463 +0200,
pics/mental_singing.JPG,mental_singing,1,0,1,0,0,2,2,3,352.8069481999846,,,,,,,,,,,,352.7911727000028,352.8069481999846,352.8069481999846,354.8088947000215,354.8088947000215,354.79291970003396,354.7929449999938,354.8088947000215,359.3132751999656,359.296964499983,359.29699019994587,359.3132751999656,361.8158771999879,361.79972939996514,,,,,,,,,,,,,,,543092,001,2024-07-26_10h44.46.134,bci_racingteam,2024.1.5,None,2024-07-26 10h44.53.974463 +0200,
pics/left_foot.JPG,left_foot,1,0,1,0,0,3,3,0,361.8158771999879,,,,,,,,,,,,361.80015469994396,361.8158771999879,361.8158771999879,363.81783509999514,363.81783509999514,363.801731799962,363.80175290000625,363.81783509999514,368.3223581999773,368.30618409998715,368.30620739993174,368.3223581999773,370.82482400001027,370.8086815000279,,,,,,,,,,,,,,,543092,001,2024-07-26_10h44.46.134,bci_racingteam,2024.1.5,None,2024-07-26 10h44.53.974463 +0200,
pics/left_hand.JPG,left_hand,1,0,1,0,1,0,4,2,370.82482400001027,,,,,,,,,,,,370.8090957000386,370.82482400001027,370.82482400001027,372.82682660000864,372.82682660000864,372.8107072999701,372.8107330999337,372.82682660000864,377.3312739999965,377.3151368999388,377.3151607000036,377.3312739999965,379.8337897999445,379.8176933999639,,,,,,,,,,,,,,,543092,001,2024-07-26_10h44.46.134,bci_racingteam,2024.1.5,None,2024-07-26 10h44.53.974463 +0200,
pics/mental_singing.JPG,mental_singing,1,0,1,0,1,1,5,3,379.8337897999445,,,,,,,,,,,,379.81811959994957,379.8337897999445,379.8337897999445,381.8357302999357,381.8357302999357,381.819675500039,381.81969889998436,381.8357302999357,386.3403149000369,386.3240983999567,386.32412190001924,386.3403149000369,388.8427499999525,388.8266285000136,,,,,,,,,,,,,,,543092,001,2024-07-26_10h44.46.134,bci_racingteam,2024.1.5,None,2024-07-26 10h44.53.974463 +0200,
pics/right_foot.JPG,right_foot,1,0,1,0,1,2,6,1,388.8427499999525,,,,,,,,,,,,388.82703739998396,388.8427499999525,388.8427499999525,390.8447227999568,390.8447227999568,390.828597899992,390.8286194000393,390.8447227999568,395.3492142999312,395.3330206000246,395.33304269996006,395.3492142999312,397.85168790002353,397.8355277000228,,,,,,,,,,,,,,,543092,001,2024-07-26_10h44.46.134,bci_racingteam,2024.1.5,None,2024-07-26 10h44.53.974463 +0200,
pics/left_foot.JPG,left_foot,1,0,1,0,1,3,7,0,397.85168790002353,,,,,,,,,,,,397.8359304999467,397.85168790002353,397.85168790002353,399.85367049998604,399.85367049998604,399.8375350999413,399.83755860000383,399.85367049998604,404.35814329993445,404.342091599945,404.3421156000113,404.35814329993445,406.86065579997376,406.84452599997167,,,,,,,,,,,,,,,543092,001,2024-07-26_10h44.46.134,bci_racingteam,2024.1.5,None,2024-07-26 10h44.53.974463 +0200,
pics/right_foot.JPG,right_foot,1,0,1,0,2,0,8,1,406.86065579997376,,,,,,,,,,,,406.84492459998,406.86065579997376,406.86065579997376,408.8626123999711,408.8626123999711,408.84639690001495,408.84641969995573,408.8626123999711,413.3671175999334,413.3509392000269,413.35096179996617,413.3671175999334,415.8696338000009,415.853457899997,,,,,,,,,,,,,,,543092,001,2024-07-26_10h44.46.134,bci_racingteam,2024.1.5,None,2024-07-26 10h44.53.974463 +0200,
pics/mental_singing.JPG,mental_singing,1,0,1,0,2,1,9,3,415.8696338000009,,,,,,,,,,,,415.85385960002895,415.8696338000009,415.8696338000009,417.87153499992564,417.87153499992564,417.8554220999358,417.85544299997855,417.87153499992564,422.3760759999277,422.35990859998856,422.3599303000374,422.3760759999277,424.8785345000215,424.8623421000084,,,,,,,,,,,,,,,543092,001,2024-07-26_10h44.46.134,bci_racingteam,2024.1.5,None,2024-07-26 10h44.53.974463 +0200,
pics/mental_singing.JPG,mental_singing,1,0,1,0,2,2,10,3,424.8785345000215,,,,,,,,,,,,424.86275460000616,424.8785345000215,424.8785345000215,426.88054379995447,426.88054379995447,426.8643882999895,426.86441069992725,426.88054379995447,431.3850458000088,431.3688482999569,431.3688710000133,431.3850458000088,433.8875140999444,433.87134930002503,,,,,,,,,,,,,,,543092,001,2024-07-26_10h44.46.134,bci_racingteam,2024.1.5,None,2024-07-26 10h44.53.974463 +0200,
pics/left_foot.JPG,left_foot,1,0,1,0,2,3,11,0,433.8875140999444,,,,,,,,,,,,433.8717505999375,433.8875140999444,433.8875140999444,435.88946829992346,435.88946829992346,435.8733640999999,435.87338849995285,435.88946829992346,440.3938272999367,440.37777389993425,440.3777973999968,440.3938272999367,442.89645160001237,442.880288299988,,,,,,,,,,,,,,,543092,001,2024-07-26_10h44.46.134,bci_racingteam,2024.1.5,None,2024-07-26 10h44.53.974463 +0200,
pics/left_foot.JPG,left_foot,1,0,1,0,3,0,12,0,442.89645160001237,,,,,,,,,,,,442.8806905000238,442.89645160001237,442.89645160001237,444.89842520002276,444.89842520002276,444.8822404999519,444.88226440001745,444.89842520002276,449.4029199000215,449.38674839993473,449.3867709999904,449.4029199000215,451.9053777999943,451.8892033000011,,,,,,,,,,,,,,,543092,001,2024-07-26_10h44.46.134,bci_racingteam,2024.1.5,None,2024-07-26 10h44.53.974463 +0200,
pics/left_hand.JPG,left_hand,1,0,1,0,3,1,13,2,451.9053777999943,,,,,,,,,,,,451.8896043000277,451.9053777999943,451.9053777999943,453.9073614999652,453.9073614999652,453.89123569999356,453.8912587999366,453.9073614999652,458.4118572999723,458.3956512999721,458.3956830999814,458.4118572999723,460.9143488999689,460.89817659999244,,,,,,,,,,,,,,,543092,001,2024-07-26_10h44.46.134,bci_racingteam,2024.1.5,None,2024-07-26 10h44.53.974463 +0200,
pics/right_foot.JPG,right_foot,1,0,1,0,3,2,14,1,460.9143488999689,,,,,,,,,,,,460.8985862999689,460.9143488999689,460.9143488999689,462.9163917999249,462.9163917999249,462.9002229999751,462.90024480002467,462.9163917999249,467.42081219994,467.4046509999316,467.40467289998196,467.42081219994,469.92328160000034,469.9072459000163,,,,,,,,,,,,,,,543092,001,2024-07-26_10h44.46.134,bci_racingteam,2024.1.5,None,2024-07-26 10h44.53.974463 +0200,
pics/left_foot.JPG,left_foot,1,0,1,0,3,3,15,0,469.92328160000034,,,,,,,,,,,,469.90764979994856,469.92328160000034,469.92328160000034,471.92531780002173,471.92531780002173,471.9092794000171,471.90930339996703,471.92531780002173,476.42974920000415,476.413541899994,476.4135649999371,476.42974920000415,478.93219880003016,478.9161340999417,,,,,,,,,,,,,,,543092,001,2024-07-26_10h44.46.134,bci_racingteam,2024.1.5,None,2024-07-26 10h44.53.974463 +0200,
pics/left_hand.JPG,left_hand,1,0,1,0,4,0,16,2,478.93219880003016,,,,,,,,,,,,478.91657819994725,478.93219880003016,478.93219880003016,480.9342707999749,480.9342707999749,480.9181583999889,480.9181868999731,480.9342707999749,485.4386735999724,485.422557999962,485.42258349992335,485.4386735999724,487.94117529992945,487.9250403000042,,,,,,,,,,,,,,,543092,001,2024-07-26_10h44.46.134,bci_racingteam,2024.1.5,None,2024-07-26 10h44.53.974463 +0200,
pics/left_hand.JPG,left_hand,1,0,1,0,4,1,17,2,487.94117529992945,,,,,,,,,,,,487.9254376000026,487.94117529992945,487.94117529992945,489.942975700018,489.942975700018,489.92681470001116,489.9268368999474,489.942975700018,494.4476440999424,494.431657899986,494.4316832999466,494.4476440999424,496.9501758000115,496.93401430000085,,,,,,,,,,,,,,,543092,001,2024-07-26_10h44.46.134,bci_racingteam,2024.1.5,None,2024-07-26 10h44.53.974463 +0200,
pics/right_foot.JPG,right_foot,1,0,1,0,4,2,18,1,496.9501758000115,,,,,,,,,,,,496.93440989998635,496.9501758000115,496.9501758000115,498.9521206000354,498.9521206000354,498.9359869000036,498.9360099999467,498.9521206000354,503.45665029995143,503.44047519995365,503.4405010000337,503.45665029995143,505.9588992999634,505.9427050999366,,,,,,,,,,,,,,,543092,001,2024-07-26_10h44.46.134,bci_racingteam,2024.1.5,None,2024-07-26 10h44.53.974463 +0200,
pics/right_foot.JPG,right_foot,1,0,1,0,4,3,19,1,505.9588992999634,,,,,,,,,,,,505.9430983000202,505.9588992999634,505.9588992999634,507.9608485000208,507.9608485000208,507.94487919996027,507.9449016000144,507.9608485000208,512.4656347000273,512.449378099991,512.449400799931,512.4656347000273,514.9681138999294,514.9519113999559,,,,,,,,,,,,,,,543092,001,2024-07-26_10h44.46.134,bci_racingteam,2024.1.5,None,2024-07-26 10h44.53.974463 +0200,
,,1,0,1,0,,,,,,,,,,,,,,,,,,,,,,,,,,,,,,,514.9520216999808,514.9681138999294,514.9681138999294,656.8443378999364,space,141.8646622999804,None,,,,,,,,543092,001,2024-07-26_10h44.46.134,bci_racingteam,2024.1.5,None,2024-07-26 10h44.53.974463 +0200,
pics/left_hand.JPG,left_hand,2,0,2,0,0,0,0,2,659.8788397000171,,,,,,,,,656.8456497000298,656.859194300021,659.8456856999546,659.8593843999552,659.8788397000171,659.8788397000171,661.8808076999849,661.8808076999849,661.8650457999902,661.8650878999615,661.8808076999849,666.3852627000306,666.3696662000148,666.3697306999238,666.3852627000306,668.8875136999413,668.8717271999922,,,,,,,,,,,,,,,543092,001,2024-07-26_10h44.46.134,bci_racingteam,2024.1.5,None,2024-07-26 10h44.53.974463 +0200,
pics/mental_singing.JPG,mental_singing,2,0,2,0,0,1,1,3,668.8875136999413,,,,,,,,,,,,668.8724347000243,668.8875136999413,668.8875136999413,670.906455499935,670.906455499935,670.8739471000154,670.8739983999403,670.906455499935,675.4109589,675.3951229000231,675.39516309998,675.4109589,677.9133899000008,677.897614800022,,,,,,,,,,,,,,,543092,001,2024-07-26_10h44.46.134,bci_racingteam,2024.1.5,None,2024-07-26 10h44.53.974463 +0200,
pics/mental_singing.JPG,mental_singing,2,0,2,0,0,2,2,3,677.9133899000008,,,,,,,,,,,,677.8983316000085,677.9133899000008,677.9133899000008,679.9320790999336,679.9320790999336,679.8996759000001,679.899716099957,679.9320790999336,684.4365802999819,684.4208554000361,684.420895999996,684.4365802999819,686.9390251999721,686.9232990000164,,,,,,,,,,,,,,,543092,001,2024-07-26_10h44.46.134,bci_racingteam,2024.1.5,None,2024-07-26 10h44.53.974463 +0200,
pics/left_foot.JPG,left_foot,2,0,2,0,0,3,3,0,686.9390251999721,,,,,,,,,,,,686.9240348000312,686.9390251999721,686.9390251999721,688.9410829999251,688.9410829999251,688.9252378999954,688.9252788999584,688.9410829999251,693.4455216999631,693.4296335999388,693.4296770000365,693.4455216999631,695.9480169999879,695.9321733999532,,,,,,,,,,,,,,,543092,001,2024-07-26_10h44.46.134,bci_racingteam,2024.1.5,None,2024-07-26 10h44.53.974463 +0200,
pics/mental_singing.JPG,mental_singing,2,0,2,0,1,0,4,3,695.9480169999879,,,,,,,,,,,,695.9328899999382,695.9480169999879,695.9480169999879,697.9667036000174,697.9667036000174,697.9343087000307,697.9343812000006,697.9667036000174,702.4711101999274,702.4552099999273,702.4552494999953,702.4711101999274,704.973707600031,704.9578228000319,,,,,,,,,,,,,,,543092,001,2024-07-26_10h44.46.134,bci_racingteam,2024.1.5,None,2024-07-26 10h44.53.974463 +0200,
pics/right_foot.JPG,right_foot,2,0,2,0,1,1,5,1,704.973707600031,,,,,,,,,,,,704.9585211999947,704.973707600031,704.973707600031,706.9756163000129,706.9756163000129,706.9598363999976,706.9598794999765,706.9756163000129,711.4800706999376,711.4642254000064,711.4642654999625,711.4800706999376,713.9826323000016,713.9669314000057,,,,,,,,,,,,,,,543092,001,2024-07-26_10h44.46.134,bci_racingteam,2024.1.5,None,2024-07-26 10h44.53.974463 +0200,
pics/mental_singing.JPG,mental_singing,2,0,2,0,1,2,6,3,713.9826323000016,,,,,,,,,,,,713.967652900028,713.9826323000016,713.9826323000016,716.0012837999966,716.0012837999966,715.9688152000308,715.9688591000158,716.0012837999966,720.5057393999305,720.4898521000287,720.4898932999931,720.5057393999305,723.0082343999529,722.9923820999684,,,,,,,,,,,,,,,543092,001,2024-07-26_10h44.46.134,bci_racingteam,2024.1.5,None,2024-07-26 10h44.53.974463 +0200,
pics/mental_singing.JPG,mental_singing,2,0,2,0,1,3,7,3,723.0082343999529,,,,,,,,,,,,722.993123000022,723.0082343999529,723.0082343999529,725.0269054999808,725.0269054999808,724.9944127999479,724.9944700000342,725.0269054999808,729.5313486999366,729.5155319999903,729.5155708999373,729.5313486999366,732.0339399999939,732.0180658999598,,,,,,,,,,,,,,,543092,001,2024-07-26_10h44.46.134,bci_racingteam,2024.1.5,None,2024-07-26 10h44.53.974463 +0200,
pics/left_hand.JPG,left_hand,2,0,2,0,2,0,8,2,732.0339399999939,,,,,,,,,,,,732.0187656999333,732.0339399999939,732.0339399999939,734.0356787999626,734.0356787999626,734.0200750000076,734.0201274999417,734.0356787999626,738.5403021000093,738.5243699999992,738.5244104999583,738.5403021000093,741.0427965000272,741.0269592999248,,,,,,,,,,,,,,,543092,001,2024-07-26_10h44.46.134,bci_racingteam,2024.1.5,None,2024-07-26 10h44.53.974463 +0200,
pics/left_foot.JPG,left_foot,2,0,2,0,2,1,9,0,741.0427965000272,,,,,,,,,,,,741.0276774000376,741.0427965000272,741.0427965000272,743.044777299976,743.044777299976,743.0289826999651,743.0290239999304,743.044777299976,747.5492660999298,747.5334163999651,747.5334593999432,747.5492660999298,750.0518476000289,750.0359078999609,,,,,,,,,,,,,,,543092,001,2024-07-26_10h44.46.134,bci_racingteam,2024.1.5,None,2024-07-26 10h44.53.974463 +0200,
pics/left_foot.JPG,left_foot,2,0,2,0,2,2,10,0,750.0518476000289,,,,,,,,,,,,750.036619600025,750.0518476000289,750.0518476000289,752.0537676999811,752.0537676999811,752.0379402999533,752.0380138999317,752.0537676999811,756.5582118999446,756.542365500005,756.5424088999862,756.5582118999446,759.060700400034,759.0448609000305,,,,,,,,,,,,,,,543092,001,2024-07-26_10h44.46.134,bci_racingteam,2024.1.5,None,2024-07-26 10h44.53.974463 +0200,
pics/left_hand.JPG,left_hand,2,0,2,0,2,3,11,2,759.060700400034,,,,,,,,,,,,759.0455697999569,759.060700400034,759.060700400034,761.0626521999948,761.0626521999948,761.0468896999955,761.0469295999501,761.0626521999948,765.5672160999384,765.551392299938,765.5514361000387,765.5672160999384,768.0697200000286,768.0539259000216,,,,,,,,,,,,,,,543092,001,2024-07-26_10h44.46.134,bci_racingteam,2024.1.5,None,2024-07-26 10h44.53.974463 +0200,
pics/right_foot.JPG,right_foot,2,0,2,0,3,0,12,1,768.0697200000286,,,,,,,,,,,,768.0546543999808,768.0697200000286,768.0697200000286,770.0716435000068,770.0716435000068,770.0558945999946,770.0559418000048,770.0716435000068,774.5761021999642,774.5603076999541,774.5603483000305,774.5761021999642,777.0785901999334,777.0627570999786,,,,,,,,,,,,,,,543092,001,2024-07-26_10h44.46.134,bci_racingteam,2024.1.5,None,2024-07-26 10h44.53.974463 +0200,
pics/left_foot.JPG,left_foot,2,0,2,0,3,1,13,0,777.0785901999334,,,,,,,,,,,,777.0634989000391,777.0785901999334,777.0785901999334,779.0806003999896,779.0806003999896,779.0650455999421,779.0650920999469,779.0806003999896,783.5848503999878,783.5695289999712,783.5695659000194,783.5848503999878,786.0875978999538,786.0715649999911,,,,,,,,,,,,,,,543092,001,2024-07-26_10h44.46.134,bci_racingteam,2024.1.5,None,2024-07-26 10h44.53.974463 +0200,
pics/left_foot.JPG,left_foot,2,0,2,0,3,2,14,0,786.0875978999538,,,,,,,,,,,,786.0722895000363,786.0875978999538,786.0875978999538,788.0895274999784,788.0895274999784,788.0738020000281,788.0738446000032,788.0895274999784,792.5939909999724,792.5782767999917,792.5783216999844,792.5939909999724,795.0965142999776,795.0806922999909,,,,,,,,,,,,,,,543092,001,2024-07-26_10h44.46.134,bci_racingteam,2024.1.5,None,2024-07-26 10h44.53.974463 +0200,
pics/right_foot.JPG,right_foot,2,0,2,0,3,3,15,1,795.0965142999776,,,,,,,,,,,,795.0814124000026,795.0965142999776,795.0965142999776,797.0984724999871,797.0984724999871,797.0827420999995,797.0827851999784,797.0984724999871,801.6030157000059,801.5870986999944,801.5871526999399,801.6030157000059,804.1055018999614,804.0896552000195,,,,,,,,,,,,,,,543092,001,2024-07-26_10h44.46.134,bci_racingteam,2024.1.5,None,2024-07-26 10h44.53.974463 +0200,
pics/right_foot.JPG,right_foot,2,0,2,0,4,0,16,1,804.1055018999614,,,,,,,,,,,,804.090359600028,804.1055018999614,804.1055018999614,806.1074558999389,806.1074558999389,806.0916926999344,806.0917350000236,806.1074558999389,810.6119617000222,810.5961673000129,810.5962104999926,810.6119617000222,813.1144274999388,813.098671099986,,,,,,,,,,,,,,,543092,001,2024-07-26_10h44.46.134,bci_racingteam,2024.1.5,None,2024-07-26 10h44.53.974463 +0200,
pics/left_hand.JPG,left_hand,2,0,2,0,4,1,17,2,813.1144274999388,,,,,,,,,,,,813.0994369999971,813.1144274999388,813.1144274999388,815.1164976999862,815.1164976999862,815.1006274999818,815.1006684999447,815.1164976999862,819.6209044000134,819.6050578999566,819.6051130000269,819.6209044000134,822.1234060999705,822.1075282000238,,,,,,,,,,,,,,,543092,001,2024-07-26_10h44.46.134,bci_racingteam,2024.1.5,None,2024-07-26 10h44.53.974463 +0200,
pics/right_foot.JPG,right_foot,2,0,2,0,4,2,18,1,822.1234060999705,,,,,,,,,,,,822.1082423999906,822.1234060999705,822.1234060999705,824.1253998000175,824.1253998000175,824.1095763000194,824.1096160999732,824.1253998000175,828.6298589999788,828.613996900036,828.6140390000073,828.6298589999788,831.1323544000043,831.1164996000007,,,,,,,,,,,,,,,543092,001,2024-07-26_10h44.46.134,bci_racingteam,2024.1.5,None,2024-07-26 10h44.53.974463 +0200,
pics/left_hand.JPG,left_hand,2,0,2,0,4,3,19,2,831.1323544000043,,,,,,,,,,,,831.1172615999822,831.1323544000043,831.1323544000043,833.1343070999719,833.1343070999719,833.1184883000096,833.118530399981,833.1343070999719,837.6389154000208,837.6228892999934,837.6229451999534,837.6389154000208,840.1412680000067,840.1255470999749,,,,,,,,,,,,,,,543092,001,2024-07-26_10h44.46.134,bci_racingteam,2024.1.5,None,2024-07-26 10h44.53.974463 +0200,
,,2,0,2,0,,,,,,,,,,,,,,,,,,,,,,,,,,,,,,,840.1257414999418,840.1412680000067,840.1412680000067,1047.0483770000283,space,206.90264810004737,None,,,,,,,,543092,001,2024-07-26_10h44.46.134,bci_racingteam,2024.1.5,None,2024-07-26 10h44.53.974463 +0200,
pics/mental_singing.JPG,mental_singing,3,0,3,0,0,0,0,3,1050.0832112999633,,,,,,,,,1047.0497283999575,1047.0635579000227,1050.0500491999555,1050.0646322999382,1050.0832112999633,1050.0832112999633,1052.1018530000001,1052.1018530000001,1052.0693949999986,1052.06943709997,1052.1018530000001,1056.6063339000102,1056.5905673999805,1056.5906119999709,1056.6063339000102,1059.1088743000291,1059.093070199946,,,,,,,,,,,,,,,543092,001,2024-07-26_10h44.46.134,bci_racingteam,2024.1.5,None,2024-07-26 10h44.53.974463 +0200,
pics/right_foot.JPG,right_foot,3,0,3,0,0,1,1,1,1059.1088743000291,,,,,,,,,,,,1059.0937936999835,1059.1088743000291,1059.1088743000291,1061.110831500031,1061.110831500031,1061.0950463999761,1061.095087399939,1061.110831500031,1065.6152943000197,1065.599476399948,1065.5995159000158,1065.6152943000197,1068.1177787999623,1068.1019312000135,,,,,,,,,,,,,,,543092,001,2024-07-26_10h44.46.134,bci_racingteam,2024.1.5,None,2024-07-26 10h44.53.974463 +0200,
pics/right_foot.JPG,right_foot,3,0,3,0,0,2,2,1,1068.1177787999623,,,,,,,,,,,,1068.1026281999657,1068.1177787999623,1068.1177787999623,1070.1197399999946,1070.1197399999946,1070.1040547000011,1070.1040981999831,1070.1197399999946,1074.6242985000135,1074.6085254999343,1074.60857079993,1074.6242985000135,1077.1265178000322,1077.1106716999784,,,,,,,,,,,,,,,543092,001,2024-07-26_10h44.46.134,bci_racingteam,2024.1.5,None,2024-07-26 10h44.53.974463 +0200,
pics/left_foot.JPG,left_foot,3,0,3,0,0,3,3,0,1077.1265178000322,,,,,,,,,,,,1077.1114694999997,1077.1265178000322,1077.1265178000322,1079.1287254999625,1079.1287254999625,1079.113016200019,1079.113056799979,1079.1287254999625,1083.6332336999476,1083.617464800016,1083.6175051999744,1083.6332336999476,1086.136419699993,1086.1198637000052,,,,,,,,,,,,,,,543092,001,2024-07-26_10h44.46.134,bci_racingteam,2024.1.5,None,2024-07-26 10h44.53.974463 +0200,
pics/mental_singing.JPG,mental_singing,3,0,3,0,1,0,4,3,1086.136419699993,,,,,,,,,,,,1086.1205758999567,1086.136419699993,1086.136419699993,1088.1543746999232,1088.1543746999232,1088.121877699974,1088.1219183999347,1088.1543746999232,1092.6587961999467,1092.6429110999452,1092.6429499000078,1092.6587961999467,1095.1613514999626,1095.1454915000359,,,,,,,,,,,,,,,543092,001,2024-07-26_10h44.46.134,bci_racingteam,2024.1.5,None,2024-07-26 10h44.53.974463 +0200,
pics/mental_singing.JPG,mental_singing,3,0,3,0,1,1,5,3,1095.1613514999626,,,,,,,,,,,,1095.1461804999271,1095.1613514999626,1095.1613514999626,1097.1800365999807,1097.1800365999807,1097.147523600026,1097.147568800021,1097.1800365999807,1101.6844657999463,1101.6686813000124,1101.6687221999746,1101.6844657999463,1104.186969500035,1104.171136799967,,,,,,,,,,,,,,,543092,001,2024-07-26_10h44.46.134,bci_racingteam,2024.1.5,None,2024-07-26 10h44.53.974463 +0200,
pics/mental_singing.JPG,mental_singing,3,0,3,0,1,2,6,3,1104.186969500035,,,,,,,,,,,,1104.1719027999789,1104.186969500035,1104.186969500035,1106.20564369997,1106.20564369997,1106.173168899957,1106.173211999936,1106.20564369997,1110.7101099999854,1110.6942302000243,1110.6942705999827,1110.7101099999854,1113.212624699925,1113.1967816000106,,,,,,,,,,,,,,,543092,001,2024-07-26_10h44.46.134,bci_racingteam,2024.1.5,None,2024-07-26 10h44.53.974463 +0200,
pics/left_foot.JPG,left_foot,3,0,3,0,1,3,7,0,1113.212624699925,,,,,,,,,,,,1113.1974766999483,1113.212624699925,1113.212624699925,1115.2145443999907,1115.2145443999907,1115.1988244999666,1115.1988646999234,1115.2145443999907,1119.7191062000347,1119.7032296999823,1119.7032712999498,1119.7191062000347,1122.2215182000073,1122.2056592999725,,,,,,,,,,,,,,,543092,001,2024-07-26_10h44.46.134,bci_racingteam,2024.1.5,None,2024-07-26 10h44.53.974463 +0200,
pics/right_foot.JPG,right_foot,3,0,3,0,2,0,8,1,1122.2215182000073,,,,,,,,,,,,1122.2064341999358,1122.2215182000073,1122.2215182000073,1124.2235382000217,1124.2235382000217,1124.2077743000118,1124.207814799971,1124.2235382000217,1128.7280289999908,1128.7119107999606,1128.711950100027,1128.7280289999908,1131.230600800016,1131.2146248000208,,,,,,,,,,,,,,,543092,001,2024-07-26_10h44.46.134,bci_racingteam,2024.1.5,None,2024-07-26 10h44.53.974463 +0200,
pics/left_foot.JPG,left_foot,3,0,3,0,2,1,9,0,1131.230600800016,,,,,,,,,,,,1131.2153771999292,1131.230600800016,1131.230600800016,1133.2324717999436,1133.2324717999436,1133.2166740000248,1133.2167205000296,1133.2324717999436,1137.7369621000253,1137.7211587999482,1137.7212033999385,1137.7369621000253,1140.2394471999723,1140.2236434000079,,,,,,,,,,,,,,,543092,001,2024-07-26_10h44.46.134,bci_racingteam,2024.1.5,None,2024-07-26 10h44.53.974463 +0200,
pics/right_foot.JPG,right_foot,3,0,3,0,2,2,10,1,1140.2394471999723,,,,,,,,,,,,1140.2243417999707,1140.2394471999723,1140.2394471999723,1142.2413176000118,1142.2413176000118,1142.2255058999872,1142.2255474999547,1142.2413176000118,1146.7457940999884,1146.7301619999344,1146.7302121999674,1146.7457940999884,1149.2484276000177,1149.2325614999281,,,,,,,,,,,,,,,543092,001,2024-07-26_10h44.46.134,bci_racingteam,2024.1.5,None,2024-07-26 10h44.53.974463 +0200,
pics/left_hand.JPG,left_hand,3,0,3,0,2,3,11,2,1149.2484276000177,,,,,,,,,,,,1149.2333010999719,1149.2484276000177,1149.2484276000177,1151.2503656999907,1151.2503656999907,1151.2346398000373,1151.2346808000002,1151.2503656999907,1155.754952999996,1155.7390880000312,1155.7391310000094,1155.754952999996,1158.2571949999547,1158.2412489999551,,,,,,,,,,,,,,,543092,001,2024-07-26_10h44.46.134,bci_racingteam,2024.1.5,None,2024-07-26 10h44.53.974463 +0200,
pics/left_hand.JPG,left_hand,3,0,3,0,3,0,12,2,1158.2571949999547,,,,,,,,,,,,1158.241943400004,1158.2571949999547,1158.2571949999547,1160.2594413999468,1160.2594413999468,1160.243750100024,1160.2438037999673,1160.2594413999468,1164.7638081000187,1164.7480301000178,1164.7480718999868,1164.7638081000187,1167.2663771000225,1167.2505063000135,,,,,,,,,,,,,,,543092,001,2024-07-26_10h44.46.134,bci_racingteam,2024.1.5,None,2024-07-26 10h44.53.974463 +0200,
pics/left_hand.JPG,left_hand,3,0,3,0,3,1,13,2,1167.2663771000225,,,,,,,,,,,,1167.2511948000174,1167.2663771000225,1167.2663771000225,1169.268296299968,1169.268296299968,1169.2525003999472,1169.2525398000143,1169.268296299968,1173.7728379999753,1173.7571197999641,1173.757160399924,1173.7728379999753,1176.2753829000285,1176.2594674000284,,,,,,,,,,,,,,,543092,001,2024-07-26_10h44.46.134,bci_racingteam,2024.1.5,None,2024-07-26 10h44.53.974463 +0200,
pics/left_foot.JPG,left_foot,3,0,3,0,3,2,14,0,1176.2753829000285,,,,,,,,,,,,1176.260157499928,1176.2753829000285,1176.2753829000285,1178.2773012999678,1178.2773012999678,1178.2614846000215,1178.2615255999845,1178.2773012999678,1182.7817303999327,1182.7659562999615,1182.7659972999245,1182.7817303999327,1185.2842106999597,1185.2683513000375,,,,,,,,,,,,,,,543092,001,2024-07-26_10h44.46.134,bci_racingteam,2024.1.5,None,2024-07-26 10h44.53.974463 +0200,
pics/mental_singing.JPG,mental_singing,3,0,3,0,3,3,15,3,1185.2842106999597,,,,,,,,,,,,1185.2691043999512,1185.2842106999597,1185.2842106999597,1187.3030429999344,1187.3030429999344,1187.2703237000387,1187.2703642999986,1187.3030429999344,1191.8073728999589,1191.7914684999269,1191.7915076999925,1191.8073728999589,1194.3098478999455,1194.2939744000323,,,,,,,,,,,,,,,543092,001,2024-07-26_10h44.46.134,bci_racingteam,2024.1.5,None,2024-07-26 10h44.53.974463 +0200,
pics/left_hand.JPG,left_hand,3,0,3,0,4,0,16,2,1194.3098478999455,,,,,,,,,,,,1194.294670399977,1194.3098478999455,1194.3098478999455,1196.311788699939,1196.311788699939,1196.2960232000332,1196.2960620999802,1196.311788699939,1200.816241399967,1200.8005441999994,1200.8005898999982,1200.816241399967,1203.318853899953,1203.3030795999803,,,,,,,,,,,,,,,543092,001,2024-07-26_10h44.46.134,bci_racingteam,2024.1.5,None,2024-07-26 10h44.53.974463 +0200,
pics/right_foot.JPG,right_foot,3,0,3,0,4,1,17,1,1203.318853899953,,,,,,,,,,,,1203.3037738000276,1203.318853899953,1203.318853899953,1205.3207484999439,1205.3207484999439,1205.3050234999973,1205.3050771999406,1205.3207484999439,1209.825226499932,1209.8093838000204,1209.8094255999895,1209.825226499932,1212.3277715999866,1212.3118939999258,,,,,,,,,,,,,,,543092,001,2024-07-26_10h44.46.134,bci_racingteam,2024.1.5,None,2024-07-26 10h44.53.974463 +0200,
pics/left_foot.JPG,left_foot,3,0,3,0,4,2,18,0,1212.3277715999866,,,,,,,,,,,,1212.3126815999858,1212.3277715999866,1212.3277715999866,1214.3297026000218,1214.3297026000218,1214.3139704000205,1214.3140092999674,1214.3297026000218,1218.8342515999684,1218.8183637999464,1218.8184065000387,1218.8342515999684,1221.3367101999465,1221.320981799974,,,,,,,,,,,,,,,543092,001,2024-07-26_10h44.46.134,bci_racingteam,2024.1.5,None,2024-07-26 10h44.53.974463 +0200,
pics/left_hand.JPG,left_hand,3,0,3,0,4,3,19,2,1221.3367101999465,,,,,,,,,,,,1221.3216703999788,1221.3367101999465,1221.3367101999465,1223.3386080999626,1223.3386080999626,1223.322933599935,1223.3229740000097,1223.3386080999626,1227.8431834999938,1227.8273090999573,1227.8273537999485,1227.8431834999938,1230.3457121000392,1230.3300124999369,,,,,,,,,,,,,,,543092,001,2024-07-26_10h44.46.134,bci_racingteam,2024.1.5,None,2024-07-26 10h44.53.974463 +0200,
,,3,0,3,0,,,,,,,,,,,,,,,,,,,,,,,,,,,,,,,1230.3302347999997,1230.3457121000392,1230.3457121000392,1239.056074299966,space,8.699023299966939,None,,,,,,,,543092,001,2024-07-26_10h44.46.134,bci_racingteam,2024.1.5,None,2024-07-26 10h44.53.974463 +0200,
,,,,,,,,,,,,,,,,,,,,,,,,,,,,,,,,,,,,,,,,,,,1239.0569253999274,1239.0710263999645,1239.0710263999645,1240.7245085999602,space,1.6418490000069141,None,543092,001,2024-07-26_10h44.46.134,bci_racingteam,2024.1.5,None,2024-07-26 10h44.53.974463 +0200,
